Folder: manoj

File: XRD_profiles_2D.csv
2theta,x=0.00,x=0.005,x=0.01,x=0.02,x=0.03,x=0.04,x=0.05,x=0.06,x=0.08,x=0.10
10.58,0.03334,0.10051,0.09646,0.04823,0.01979,0.18317,0.18118,0.09838,0.13525,0.04282
11.18,0.02964,0.09203,0.08151,0.03843,0.03069,0.15815,0.15737,0.08595,0.11811,0.04399
11.78,0.02669,0.07744,0.06307,0.05099,0.0259,0.14123,0.14151,0.07723,0.1004,0.05912
12.38,0.02324,0.07251,0.03962,0.04244,0.02594,0.11968,0.12162,0.06546,0.08558,0.04422
12.98,0.02119,0.06236,0.03643,0.03968,0.02655,0.10454,0.11488,0.05257,0.07416,0.04552
13.58,0.0226,0.05787,0.03529,0.03639,0.03182,0.09786,0.10292,0.05251,0.07133,0.01797
14.18,0.01855,0.05294,0.02535,0.03825,0.01371,0.09225,0.09499,0.04451,0.06719,0.02388
14.78,0.01919,0.05309,0.02193,0.03608,0.02487,0.09163,0.09206,0.04353,0.06474,0.01978
15.38,0.01704,0.05235,0.03125,0.02889,0.01369,0.08406,0.0939,0.04171,0.06449,0.01331
15.98,0.0169,0.04594,0.02097,0.04682,0.01836,0.07133,0.07999,0.03605,0.06066,0.0237
16.58,0.01591,0.04284,0.0242,0.03058,0.02436,0.06527,0.08162,0.03488,0.0572,0.03198
17.18,0.01581,0.04155,0.02143,0.04374,0.02116,0.06198,0.0738,0.03071,0.04766,0.02814
17.78,0.01862,0.04658,0.0178,0.0368,0.01796,0.06554,0.07597,0.03058,0.05331,0.03458
18.38,0.07615,0.10356,0.0849,0.08814,0.09547,0.10303,0.15922,0.03748,0.08879,0.06942
18.98,0.01296,0.03579,0.01585,0.02689,0.00401,0.04809,0.06097,0.02889,0.04056,0.05235
19.58,0.01373,0.03722,0.01723,0.0459,0.01046,0.04568,0.05217,0.02629,0.04238,0.02685
20.18,0.01243,0.02938,0.00511,0.03049,0.02295,0.04497,0.05478,0.02342,0.03453,0.03244
20.78,0.01514,0.03613,0.0103,0.03745,0.01672,0.04408,0.05206,0.01958,0.03592,0.02486
21.38,0.01183,0.02652,0.0083,0.02857,0.01341,0.0431,0.04945,0.01906,0.03384,0.03651
21.98,0.02031,0.02948,0.00827,0.03176,0.00905,0.03437,0.0451,0.01672,0.03981,0.03071
22.58,0.01211,0.02987,0.00932,0.03997,0.0166,0.03286,0.04695,0.01412,0.04044,0.01716
23.18,0.01331,0.04052,0.01233,0.03124,0.01993,0.035,0.04184,0.01418,0.03805,0.02391
23.78,0.01408,0.02958,0.01926,0.03853,0.01673,0.03731,0.04652,0.01705,0.03912,0.02591
24.38,0.01521,0.03135,0.02379,0.03653,0.02131,0.03606,0.04597,0.019,0.04546,0.02106
24.98,0.0213,0.03869,0.02256,0.04231,0.02663,0.04586,0.05988,0.01945,0.04967,0.04677
25.58,0.01363,0.03312,0.01675,0.03453,0.02382,0.03562,0.05239,0.01945,0.05375,0.02741
26.18,0.01996,0.0485,0.03849,0.05363,0.06083,0.05646,0.0701,0.01958,0.05061,0.03516
26.78,0.02778,0.04693,0.02833,0.06746,0.04654,0.05886,0.08814,0.05947,0.06141,0.23288
27.38,0.40165,0.59186,0.46226,0.82013,0.17272,0.86661,0.75111,0.91171,0.44468,1
27.98,0.01574,0.03559,0.01802,0.0347,0.01601,0.03909,0.05586,0.02063,0.05124,0.02126
28.58,0.01289,0.02997,0.02252,0.05516,0.01859,0.0374,0.04836,0.01822,0.05381,0.03872
29.18,0.01739,0.03613,0.02265,0.06834,0.0393,0.04488,0.0701,0.0216,0.0653,0.04295
29.78,0.01595,0.03791,0.02376,0.06167,0.02622,0.04497,0.07488,0.06656,0.05927,0.14467
30.38,0.0106,0.03165,0.02161,0.04746,0.02626,0.03268,0.05391,0.01516,0.06103,0.0348
30.98,0.01549,0.03796,0.03621,0.05913,0.03189,0.04194,0.06325,0.02772,0.06693,0.05879
31.58,0.03074,0.04451,0.03275,0.07331,0.03948,0.06812,0.08575,0.06754,0.0805,0.10517
32.18,0.13027,0.26707,0.29934,0.19601,0.24594,0.20089,0.25725,0.04177,0.26855,0.15815
32.78,0.00951,0.02396,0.01876,0.04662,0.01238,0.02627,0.0413,0.02037,0.04684,0.08531
33.38,0.00866,0.01991,0.01508,0.0375,0.01374,0.02155,0.03456,0.00937,0.04232,0.03321
33.98,0.00514,0.01671,0.01368,0.02612,0.00906,0.01986,0.03337,0.00807,0.03836,0.00482
34.58,0.00609,0.0209,0.01534,0.03132,0.01569,0.01906,0.02587,0.00787,0.03334,0.01568
35.18,0.00764,0.01898,0.01253,0.01415,0.02308,0.01923,0.02924,0.01308,0.03253,0.03103
35.78,0.00591,0.01863,0.01059,0.02865,0.01478,0.01799,0.02891,0.01379,0.03391,0.02925
36.38,0.00785,0.01868,0.0141,0.0449,0.02625,0.01247,0.02358,0.01022,0.0334,0.01166
36.98,0.0063,0.01745,0.00999,0.03044,0.00889,0.01407,0.02456,0.00677,0.02945,0.02411
37.58,0.04165,0.08848,0.0825,0.10871,0.04616,0.10098,0.10499,0.07879,0.09375,0.16356
38.18,0.04327,0.12604,0.11735,0.13874,0.14136,0.13455,0.14259,0.05466,0.11679,0.12995
38.78,0.00669,0.01651,0.0101,0.03789,0.01206,0.01728,0.02652,0.0121,0.02763,0.02577
39.38,0.00704,0.0176,0.01619,0.0315,0.00618,0.02102,0.0275,0.02043,0.02612,0.05649
39.98,0.00771,0.01745,0.01869,0.01957,0.01614,0.0179,0.02869,0.01223,0.0275,0.01766
40.58,0.02172,0.05215,0.07878,0.0687,0.03047,0.08602,0.0676,0.13143,0.04088,0.18593
41.18,0.01197,0.05013,0.06016,0.06432,0.08796,0.05209,0.06065,0.01178,0.04923,0.03985
41.78,0.00715,0.01577,0.01303,0.03255,0.02719,0.01451,0.02804,0.01197,0.02669,0.04107
42.38,0.00697,0.01755,0.01249,0.04224,0.02512,0.02565,0.03337,0.04099,0.02449,0.08945
42.98,0.01017,0.02805,0.02195,0.06875,0.01927,0.05824,0.05326,0.08036,0.03767,0.15153
43.58,0.00489,0.01153,0.00726,0.02374,0.00934,0.00917,0.01489,0.01191,0.01884,0.02969
44.18,0.00852,0.02603,0.03458,0.05443,0.05992,0.04292,0.03902,0.01074,0.03315,0.03302
44.78,0.10249,0.14556,0.14767,0.15496,0.11699,0.16545,0.14901,0.0842,0.14272,0.27383
45.38,0.00401,0.01326,0.00421,0.02336,0.01714,0.01282,0.01587,0.00579,0.02147,0.0227
45.98,0.00701,0.01789,0.01727,0.03371,0.03,0.03339,0.0338,0.04086,0.02091,0.0709
46.58,0.00394,0.01109,0.00508,0.01215,0.0157,0.01238,0.01119,0.00683,0.01501,0.0216
47.18,0.00426,0.01365,0.0078,0.02557,0.0203,0.02449,0.02608,0.02967,0.02957,0.07797
47.78,0.00426,0.01257,0.00453,0.01821,0.01267,0.01416,0.01272,0.01002,0.01796,0.02683
48.38,0.03366,0.04017,0.03697,0.11938,0.03944,0.08584,0.06728,0.1084,0.04916,0.15222
48.98,0.00479,0.00961,0.00681,0.02811,0.01914,0.01238,0.01152,0.00813,0.01419,0.02757
49.58,0.00468,0.00917,0.00257,0.02728,0.02162,0.01612,0.01522,0.01972,0.02204,0.06391
50.18,0.0057,0.01025,0.00993,0.0267,0.01205,0.01327,0.01543,0.01132,0.01312,0.03622
50.78,0.00422,0.01025,0.00541,0.03178,0.01552,0.01184,0.01587,0.00846,0.01331,0.01696
51.38,0.02239,0.12856,0.16514,0.15639,0.19264,0.11799,0.11053,0.01998,0.11434,0.11429
51.98,0.00602,0.0104,0.00585,0.02349,0.01039,0.01131,0.01435,0.0108,0.01501,0.04183
52.58,0.03211,0.07315,0.09918,0.12197,0.08612,0.09697,0.08608,0.02934,0.0729,0.14828
53.18,0.00542,0.014,0.01314,0.02048,0.01989,0.02128,0.02174,0.01373,0.0162,0.03419
53.78,0.00493,0.00922,0.01134,0.02952,0.01778,0.02208,0.02913,0.03273,0.01595,0.07898
54.38,0.02169,0.06221,0.08683,0.09986,0.08401,0.09181,0.07814,0.0624,0.05243,0.12852
54.98,0.01243,0.02371,0.02266,0.05615,0.02291,0.06073,0.04902,0.07613,0.03152,0.1438
55.58,0.00366,0.00764,0.01042,0.01584,0.0128,0.0122,0.01065,0.00664,0.01061,0.01944
56.18,0.01542,0.06857,0.10299,0.09736,0.11464,0.09564,0.07075,0.02518,0.05023,0.0861
56.78,0.00768,0.01947,0.0275,0.02388,0.02306,0.02867,0.02869,0.01009,0.02763,0.0529
57.38,0.01665,0.0694,0.09885,0.10791,0.08447,0.07907,0.06325,0.01919,0.0643,0.10258
57.98,0.00461,0.01129,0.01248,0.03317,0.01131,0.01683,0.02141,0.02134,0.01356,0.05591
58.58,0.00412,0.00813,0.01362,0.02952,0.01741,0.01496,0.00989,0.01054,0.01494,0.03954
59.18,0.01613,0.06137,0.10489,0.09192,0.1089,0.08103,0.06847,0.02336,0.05733,0.11143
59.78,0.00415,0.00937,0.01384,0.02696,0.01603,0.01505,0.01315,0.00982,0.0125,0.04394
60.38,0.00201,0.0067,0.01502,0.01349,0.01534,0.00926,0.01043,0.00384,0.00936,0.02757
60.98,0.01253,0.03391,0.05059,0.07338,0.04453,0.05654,0.04163,0.05095,0.0346,0.10667
61.58,0.00507,0.01385,0.02465,0.03328,0.02062,0.01861,0.01848,0.01152,0.01651,0.05349
62.18,0.00324,0.01035,0.02375,0.0369,0.02168,0.0195,0.0138,0.00468,0.01074,0.04536
62.78,0.0025,0.00552,0.01349,0.02016,0.01157,0.00944,0.00946,0.00573,0.00854,0.03223
63.38,0.00236,0.00616,0.0103,0.03609,0.00735,0.00873,0.00772,0.00215,0.00521,0.03253
63.98,0.00292,0.00552,0.01288,0.03393,0.01625,0.01006,0.00652,0.0026,0.00659,0.01179
64.58,0.00489,0.01725,0.02177,0.05697,0.02283,0.0293,0.02076,0.0229,0.01695,0.06538
65.18,0.0031,0.00838,0.00966,0.02581,0.01506,0.01291,0.01109,0.0069,0.0108,0.02596
65.78,0.01609,0.03524,0.04392,0.07749,0.03097,0.04666,0.03847,0.0447,0.03196,0.09272
66.38,0.005,0.02445,0.04497,0.03989,0.05201,0.03455,0.02304,0.00976,0.02097,0.02494
66.98,0.00982,0.01927,0.02644,0.01862,0.01814,0.03651,0.02489,0.01789,0.01808,0.05716
67.58,0.00609,0.01124,0.01237,0.0089,0.01882,0.01594,0.01837,0.01236,0.01036,0.01849
68.18,0.0032,0.01134,0.01528,0.00908,0.02459,0.01915,0.02011,0.01353,0.01005,0.03015
68.78,0.00345,0.01065,0.02038,0.02213,0.01998,0.01861,0.02011,0.01087,0.01394,0.03232
69.38,0.00327,0.00754,0.00906,0.0191,0.01386,0.01256,0.01445,0.01523,0.00785,0.02391
69.98,0.00236,0.00582,0.00851,0.01328,0.02238,0.0089,0.00804,0.0067,0.00948,0.02113
70.58,0.00405,0.00902,0.01254,0.03579,0.01641,0.01478,0.01119,0.01048,0.01105,0.03073
71.18,0.00641,0.01257,0.02385,0.02992,0.02109,0.01861,0.01424,0.01275,0.01344,0.04112
71.78,0.01722,0.06566,0.11441,0.12504,0.11138,0.09911,0.07673,0.02733,0.06373,0.13213
72.38,0.00447,0.00927,0.01122,0.04205,0.02273,0.02137,0.02271,0.02668,0.01168,0.07613
72.98,0.00405,0.00754,0.00937,0.03467,0.01857,0.01425,0.0125,0.00872,0.0098,0.03265
73.58,0.0012,0.00453,0.00479,0.0219,0.01668,0.00427,0.00348,0.00442,0.00483,0.02689
74.18,0.00169,0.00537,0.01034,0.02567,0.0181,0.01149,0.00978,0.00488,0.00534,0.02773
74.78,0.00588,0.00882,0.01317,0.04577,0.02103,0.01995,0.01772,0.01633,0.01187,0.06466
75.38,0.00155,0.00453,0.00968,0.01939,0.01433,0.01193,0.00663,0.00956,0.00904,0.04665
75.98,0.00546,0.01853,0.02601,0.04049,0.0289,0.02805,0.02141,0.00969,0.01727,0.04484
76.58,0.00151,0.00946,0.01555,0.02935,0.0231,0.01264,0.01043,0.00455,0.00659,0.0259
77.18,0.00285,0.00651,0.01087,0.02553,0.00961,0.01638,0.01076,0.00807,0.00634,0.03594
77.78,4.58E-04,0.00261,0.0027,0.01794,0.01423,0.00775,0.00141,0.00442,0.00553,0.02764
78.38,0.00282,0.0069,0.01152,0.02341,0.01404,0.00882,0.01076,0.00703,0.00917,0.03611
78.98,0,0.00246,0.01021,0.02035,0.01588,0.00552,0.0013,0.00605,0.00465,0.03562
79.58,0.00377,0.00532,0.01554,0.02519,0.01862,0.01407,0.00826,0.00267,0.00823,0.03434
80,0.00292,0.00922,0.01715,0.03617,0.02343,0.01719,0.01532,0.01477,0.0086,0.04333